#Column 1: wavenumber k
#Column 2: non-linear density fluctuation power spectrum lcdm
#Column 3: non-linear density fluctuation power spectrum screening exact
#qv = 2.000000
#evaluated at a = 1.000000

0.01  10564.1  10563
0.010559  10843.3  10842
0.0111492  11110.7  11109.2
0.0117724  11364.6  11362.9
0.0124305  11603.2  11601.3
0.0131253  11825.3  11823
0.013859  12028.8  12026.2
0.0146337  12212.2  12209.3
0.0154517  12374.1  12371
0.0163154  12514.1  12510.5
0.0172274  12630.4  12626.3
0.0181904  12722.1  12717.5
0.0192072  12788.4  12783.3
0.0202809  12829.8  12824
0.0214145  12845.1  12838.6
0.0226116  12833.9  12826.7
0.0238755  12796.1  12788.3
0.0252101  12733.2  12724.4
0.0266193  12644.6  12634.7
0.0281073  12530.1  12519.2
0.0296784  12390.2  12378.5
0.0313374  12227.3  12214.3
0.0330891  12041.7  12027.1
0.0349387  11832.7  11816.9
0.0368917  11601.6  11584.7
0.0389539  11351.6  11333
0.0411314  11083.9  11063.3
0.0434305  10797.3  10775
0.0458582  10493.5  10469.7
0.0484216  10176.2  10150.7
0.0511283  9848.62  9820.4
0.0539863  9507.88  9477.55
0.057004  9156.17  9124.18
0.0601904  8797.65  8763.74
0.063555  8437.82  8400.63
0.0671076  8071.53  8031.86
0.0708588  7701.25  7659.74
0.0748197  7330.78  7287.5
0.0790019  6969  6921.83
0.083418  6607.16  6557.23
0.0880809  6247.76  6195.94
0.0930045  5893.47  5840.3
0.0982033  5557.45  5499.86
0.103693  5226.19  5165.64
0.109489  4901.95  4839.59
0.115609  4586.6  4523.28
0.122071  4295.33  4227.47
0.128895  4012.26  3941.35
0.1361  3738.27  3665.7
0.143708  3474.82  3401.64
0.151741  3237.24  3159.76
0.160223  3009.83  2929.25
0.169179  2791.14  2709.09
0.178636  2582.42  2500.1
0.188621  2398.67  2312.49
0.199165  2225.71  2136.37
0.210298  2059.49  1968.84
0.222053  1901.23  1810.6
0.234465  1765.2  1671.27
0.247572  1640.08  1542.85
0.26141  1518.94  1420.46
0.276023  1403.13  1304.86
0.291452  1305.87  1204.86
0.307744  1219.72  1115.15
0.324946  1134.71  1028.79
0.34311  1052.41  946.724
0.362289  984.589  876.72
0.38254  928.569  816.698
0.403924  871.17  757.665
0.426502  814.165  700.719
0.450343  767.581  652.429
0.475516  734.045  614.282
0.502097  697.078  575.214
0.530163  658.616  536.472
0.559798  626.629  503.255
0.59109  609.485  480.777
0.624131  587.293  455.937
0.659019  562.108  430.081
0.695856  539.751  406.937
0.734754  534.266  395.467
0.775825  522.414  380.568
0.819192  506.346  363.647
0.864984  489.558  346.909
0.913335  491.851  342.998
0.964388  486.588  334.836
1.0183  476.028  323.87
1.07522  462.154  311.305
1.13532  467.806  311.766
1.19878  465.593  307.811
1.26579  457.086  300.392
1.33655  444.5  290.816
1.41126  448.428  292.315
1.49014  446.058  290.268
1.57344  436.545  284.283
1.66139  422.406  275.687
1.75426  421.708  276.223
1.85232  416.475  274.357
1.95586  403.818  268.012
2.06519  386.416  258.755
2.18063  379.726  256.721
2.30253  370.811  253.463
2.43123  354.844  245.581
2.56714  334.617  234.867
2.71063  322.368  229.471
2.86215  310.327  224.192
3.02214  292.335  214.568
3.19107  271.13  202.311
3.36945  255.668  193.903
3.5578  242.665  186.869
3.75667  225.19  176.28
3.96666  205.547  163.66
4.18839  189.418  153.347
4.42251  176.605  145.257
4.66973  161.012  134.538
4.93075  144.376  122.612
5.20637  130.068  112.232
5.4974  119.578  104.652
5.8047  107.615  95.5276
6.12917  95.3253  85.8523
6.47178  84.2106  76.9129
6.83354  75.8215  70.007
7.21552  67.003  62.5365
7.61886  58.3992  55.0981
8.04474  50.5871  48.2564
8.49442  44.775  43.1979
8.96925  39.0371  38.0804
9.47061  33.6618  33.1975
10  28.8036  28.7178
