#Column 1: wavenumber k
#Column 2: non-linear density fluctuation power spectrum lcdm
#Column 3: non-linear density fluctuation power spectrum screening exact
#qv = 2.000000
#evaluated at a = 1.000000

0.01  10564.2  10563.2
0.010559  10843.4  10842.2
0.0111492  11110.8  11109.4
0.0117724  11364.7  11363.1
0.0124305  11603.3  11601.6
0.0131253  11825.4  11823.3
0.013859  12028.9  12026.6
0.0146337  12212.4  12209.7
0.0154517  12374.4  12371.4
0.0163154  12514.3  12511
0.0172274  12630.7  12626.9
0.0181904  12722.4  12718.1
0.0192072  12788.8  12784.1
0.0202809  12830.2  12824.9
0.0214145  12845.6  12839.6
0.0226116  12834.4  12827.8
0.0238755  12796.7  12789.5
0.0252101  12733.8  12725.7
0.0266193  12645.3  12636.1
0.0281073  12530.8  12520.8
0.0296784  12391  12380.2
0.0313374  12228.2  12216.2
0.0330891  12042.6  12029.2
0.0349387  11833.8  11819.2
0.0368917  11602.8  11587.2
0.0389539  11352.9  11335.7
0.0411314  11085.3  11066.3
0.0434305  10798.8  10778.2
0.0458582  10495.2  10473.2
0.0484216  10178  10154.4
0.0511283  9850.49  9824.43
0.0539863  9509.9  9481.89
0.057004  9158.41  9128.85
0.0601904  8800.07  8768.73
0.063555  8440.28  8405.93
0.0671076  8074.15  8037.51
0.0708588  7704.11  7665.77
0.0748197  7333.88  7293.89
0.0790019  6972.09  6928.53
0.083418  6610.41  6564.3
0.0880809  6251.27  6203.41
0.0930045  5897.28  5848.16
0.0982033  5561.17  5508
0.103693  5230.03  5174.14
0.109489  4906.05  4848.48
0.115609  4591.05  4532.57
0.122071  4299.62  4236.98
0.128895  4016.61  3951.19
0.1361  3742.86  3675.89
0.143708  3479.77  3412.2
0.151741  3241.95  3170.48
0.160223  3014.5  2940.21
0.169179  2796.01  2720.37
0.178636  2587.64  2511.71
0.188621  2403.57  2324.16
0.199165  2230.44  2148.18
0.210298  2064.35  1980.89
0.222053  1906.42  1822.95
0.234465  1769.97  1683.57
0.247572  1644.46  1555.13
0.26141  1523.34  1432.89
0.276023  1407.83  1317.55
0.291452  1310.02  1217.38
0.307744  1223.14  1127.43
0.324946  1137.98  1041.11
0.34311  1055.91  959.246
0.362289  987.401  888.949
0.38254  930.097  828.361
0.403924  872.228  769.186
0.426502  815.317  712.375
0.450343  767.864  663.673
0.475516  732.114  624.428
0.502097  694.103  584.916
0.530163  655.448  546.181
0.559798  622.452  512.46
0.59109  601.458  488.009
0.624131  577.196  462.188
0.659019  551.247  436.075
0.695856  527.688  412.399
0.734754  515.848  397.535
0.775825  500.205  380.733
0.819192  482.367  363.044
0.864984  464.489  345.892
0.913335  456.642  336.432
0.964388  445.073  324.922
1.0183  431.307  312.344
1.07522  416.567  299.458
1.13532  408.021  291.835
1.19878  396.658  282.639
1.26579  383.578  272.528
1.33655  369.869  262.182
1.41126  357.882  253.988
1.49014  344.363  244.98
1.57344  329.998  235.461
1.66139  315.669  225.91
1.75426  300.59  216.552
1.85232  284.739  206.752
1.95586  269.044  196.959
2.06519  254.039  187.549
2.18063  237.948  177.487
2.30253  221.534  167.107
2.43123  206.039  157.206
2.56714  191.723  147.983
2.71063  176.918  138.236
2.86215  162.056  128.238
3.02214  148.473  119.004
3.19107  136.19  110.589
3.36945  124.149  102.097
3.5578  112.272  93.4543
3.75667  101.623  85.6386
3.96666  92.1517  78.6207
4.18839  83.128  71.7678
4.42251  74.2376  64.7796
4.66973  66.3871  58.5583
4.93075  59.465  53.0385
5.20637  53.1974  47.959
5.4974  47.2742  43.0088
5.8047  42.0566  38.6228
6.12917  37.4695  34.7667
6.47178  33.3475  31.2308
6.83354  29.3798  27.6884
7.21552  25.9138  24.5749
7.61886  22.8865  21.8535
8.04474  20.2289  19.4529
8.49442  17.7908  17.2205
8.96925  15.6579  15.2596
9.47061  13.7931  13.5381
10  12.1625  12.0258
