#Column 1: wavenumber k
#Column 2: non-linear GR
#Column 3: non-linear screening
#Column 4: G
#evaluated at a = 1.000000

0.1  5452.5  5520.7  1.33325
0.103693  5232.2  5302.48  1.33324
0.107522  5016.63  5088.99  1.33323
0.111492  4806.06  4880.49  1.33322
0.115609  4600.74  4677.24  1.3332
0.119878  4400.9  4479.46  1.33319
0.124305  4206.73  4287.32  1.33317
0.128895  4018.37  4101  1.33315
0.133655  3835.96  3920.59  1.33313
0.13859  3659.58  3746.21  1.33311
0.143708  3489.29  3577.91  1.33308
0.149014  3325.14  3415.72  1.33306
0.154517  3167.14  3259.66  1.33302
0.160223  3015.26  3109.71  1.33299
0.166139  2869.48  2965.83  1.33295
0.172274  2729.74  2827.97  1.33291
0.178636  2595.95  2696.05  1.33286
0.185232  2468.03  2569.97  1.3328
0.192072  2345.86  2449.64  1.33274
0.199165  2229.32  2334.92  1.33268
0.206519  2118.28  2225.68  1.3326
0.214145  2012.59  2121.78  1.33252
0.222053  1912.1  2023.07  1.33242
0.230253  1816.64  1929.38  1.33232
0.238755  1726.06  1840.56  1.3322
0.247572  1640.18  1756.44  1.33208
0.256714  1558.83  1676.85  1.33193
0.266193  1481.84  1601.61  1.33177
0.276023  1409.02  1530.55  1.3316
0.286215  1340.21  1463.5  1.3314
0.296784  1275.23  1400.29  1.33118
0.307744  1213.9  1340.74  1.33094
0.319107  1156.06  1284.7  1.33067
0.330891  1101.54  1231.98  1.33037
0.34311  1050.18  1182.43  1.33003
0.35578  1001.81  1135.9  1.32966
0.368917  956.279  1092.22  1.32925
0.38254  913.436  1051.24  1.32879
0.396666  873.134  1012.82  1.32829
0.411314  835.229  976.818  1.32773
0.426502  799.586  943.089  1.32711
0.442251  766.071  911.499  1.32642
0.458582  734.556  881.92  1.32566
0.475516  704.92  854.222  1.32482
0.493075  677.045  828.285  1.3239
0.511283  650.818  803.986  1.32288
0.530163  626.131  781.213  1.32176
0.54974  602.881  759.851  1.32053
0.57004  580.969  739.791  1.31918
0.59109  560.303  720.927  1.3177
0.612917  540.791  703.153  1.31608
0.63555  522.349  686.365  1.31431
0.659019  504.895  670.292  1.31238
0.683354  488.353  655.192  1.31029
0.708588  472.648  640.798  1.30802
0.734754  457.713  627.017  1.30556
0.761886  443.481  613.763  1.3029
0.790019  429.784  600.951  1.30004
0.819192  416.776  588.5  1.29697
0.849442  404.298  576.333  1.29368
0.880809  392.297  564.373  1.29018
0.913335  380.726  552.558  1.28645
0.947061  369.541  540.832  1.28249
0.982033  358.701  529.13  1.27831
1.0183  348.169  517.385  1.27391
1.0559  337.909  505.541  1.2693
1.09489  327.892  493.574  1.26447
1.13532  318.089  481.468  1.25945
1.17724  308.477  469.184  1.25424
1.22071  299.033  456.703  1.24885
1.26579  289.739  444.016  1.24329
1.31253  280.58  431.12  1.2376
1.361  271.543  418.021  1.23177
1.41126  262.618  404.727  1.22583
1.46337  253.799  391.265  1.21979
1.51741  245.081  377.685  1.21368
1.57344  236.46  363.999  1.20752
1.63154  227.937  350.124  1.20132
1.69179  219.513  336.264  1.1951
1.75426  211.191  322.409  1.18888
1.81904  202.976  308.598  1.18268
1.88621  194.873  294.869  1.17651
1.95586  186.889  281.264  1.1704
2.02809  179.032  267.823  1.16435
2.10298  171.309  254.635  1.15837
2.18063  163.73  241.662  1.15249
2.26116  156.302  228.988  1.14671
2.34465  149.034  216.641  1.14104
2.43123  141.935  204.654  1.13549
2.52101  135.011  193.068  1.13006
2.6141  128.272  181.7  1.12477
2.71063  121.742  170.836  1.11961
2.81073  115.387  160.413  1.1146
2.91452  109.235  150.449  1.10974
3.02214  103.29  140.944  1.10502
3.13374  97.5506  131.87  1.10045
3.24946  92.0249  123.213  1.09603
3.36945  86.7127  114.967  1.09176
3.49387  81.6147  107.139  1.08764
3.62289  76.7308  99.7382  1.08367
3.75667  72.0601  92.7702  1.07984
3.89539  67.6007  86.2442  1.07616
4.03924  63.3501  80.1637  1.07263
4.18839  59.3052  74.3565  1.06923
4.34305  55.4622  68.9441  1.06597
4.50343  51.8165  63.8517  1.06284
4.66973  48.3634  59.0734  1.05984
4.84216  45.0975  54.6044  1.05697
5.02097  42.0131  50.4374  1.05422
5.20637  39.1043  46.5633  1.05159
5.39863  36.3647  42.9716  1.04908
5.59798  33.788  39.6499  1.04668
5.8047  31.3675  36.5765  1.04438
6.01904  29.0968  33.7176  1.04219
6.24131  26.9691  31.0521  1.0401
6.47178  24.9778  28.5723  1.03811
6.71076  23.1161  26.272  1.03621
6.95856  21.3778  24.1569  1.03439
7.21552  19.7562  22.1756  1.03267
7.48197  18.2452  20.36  1.03102
7.75825  16.8385  18.6865  1.02946
8.04474  15.5304  17.1461  1.02796
8.3418  14.3149  15.7312  1.02655
8.64984  13.1866  14.4341  1.0252
8.96925  12.1402  13.2396  1.02391
9.30045  11.1705  12.1341  1.02269
9.64388  10.2726  11.1135  1.02153
10  9.44193  10.1738  1.02043
